Folder: Concrete_mixing_analysis

File: preprocessed_concrete_mixing_entries.csv
binder(kg/m3),pozzolan(kg/m3),fine_aggregate(kg/m3),water(kg/m3),foaming_agent(kg/m3),measured_density(kg/m3),period_of_testing(Days),compressive_strength(MPa)
420.0,0.0,0.0,168.0,39.4,629.0,28,1.77
57.0,787.0,0.0,484.0,8.2,1338.0,28,0.23
450.0,0.0,529.0,250.0,40.0,1069.0,28,10.78
375.0,0.0,1355.0,150.0,20.0,1805.0,28,17.65
375.0,0.0,717.0,200.0,40.0,1161.0,28,8.82
153.2,0.0,195.2,68.9,0.48,600.0,7,0.3
251.5,0.0,377.3,113.2,0.35,1000.0,7,2.2
176.1,75.45,377.3,113.2,0.37,1000.0,7,1.6
424.9,0.0,446.1,191.2,0.17,1400.0,7,6.9
107.2,45.96,229.7,68.9,0.51,600.0,28,0.3
251.5,0.0,377.3,113.2,0.37,1000.0,28,2.9
213.8,37.73,377.3,113.2,0.37,1000.0,28,2.2
424.9,0.0,541.7,191.2,0.25,1400.0,28,9.5
130.2,22.98,229.7,68.9,0.5,600.0,60,0.7
153.2,0.0,229.7,68.9,0.46,600.0,60,0.8
251.5,0.0,264.1,113.2,0.31,1000.0,60,3.1
424.9,0.0,637.3,191.2,0.29,1400.0,60,12.1
153.2,0.0,229.7,68.9,0.5,600.0,180,0.6
153.2,0.0,229.7,68.9,0.48,600.0,180,0.6
251.5,0.0,320.7,113.2,0.33,1000.0,180,4.0
424.9,0.0,637.3,191.2,0.28,1400.0,180,12.2
297.4,127.47,637.3,191.2,0.29,1400.0,180,9.7
600.0,0.0,500.0,315.0,26.5,1700.0,3,1.02795
600.0,0.0,500.0,315.0,26.5,1700.0,3,2.2
600.0,0.0,500.0,315.0,26.5,1700.0,7,2.2
600.0,0.0,500.0,315.0,26.5,1700.0,7,3.0
600.0,0.0,500.0,315.0,26.5,1700.0,14,2.2
600.0,0.0,500.0,315.0,26.5,1700.0,14,3.1
600.0,0.0,500.0,315.0,26.5,1700.0,28,2.8
600.0,0.0,500.0,315.0,26.5,1700.0,28,3.8
225.0,0.0,770.0,265.0,33.0,1250.0,7,0.6
225.0,112.5,675.0,400.0,43.0,1300.0,7,0.8
300.0,0.0,685.0,275.0,29.0,1175.0,14,1.1
225.0,0.0,675.0,385.0,27.0,1295.0,14,2.5
450.0,0.0,515.0,295.0,30.0,1195.0,28,3.1
225.0,25.0,770.0,265.0,35.0,1305.0,28,1.0
195.0,0.0,730.0,415.0,26.0,1255.0,28,0.4
200.0,0.9,260.0,140.0,18.0,864.0,7,1.99
280.0,0.9,180.0,160.0,15.1,845.0,7,2.98
160.0,0.9,300.0,160.0,14.8,840.0,28,3.97
325.0,0.0,885.0,163.0,20.0,1396.0,28,0.25
451.0,0.0,0.0,190.0,35.8,678.0,28,1.07
420.0,0.0,0.0,168.0,39.4,629.0,28,1.54
844.0,0.0,0.0,484.0,8.2,1338.0,28,0.2
311.0,0.0,0.0,141.0,44.3,497.0,28,0.85
411.0,0.0,0.0,186.0,38.5,631.0,28,2.1
825.0,0.0,0.0,469.0,10.2,1304.0,28,1.43
325.0,0.0,885.0,163.0,20.0,1396.0,28,0.0
451.0,0.0,0.0,190.0,35.8,678.0,28,1.36
614.6,0.0,614.6,276.57,29.5,1505.8,7,7.92
581.7,0.0,581.7,261.77,33.3,1425.19,7,8.28
699.7,0.0,699.7,314.87,19.7,1714.37,7,17.22
772.5,0.0,772.5,347.63,11.4,1892.74,7,13.66
779.0,0.0,389.5,350.55,25.2,1519.11,7,12.08
902.0,0.0,451.0,405.9,13.4,1759.11,7,18.32
987.7,0.0,493.85,444.47,5.2,1925.93,7,27.16
985.2,0.0,492.6,443.34,5.4,1921.19,7,26.09
441.7,0.0,883.4,198.765,32.8,1523.85,7,9.5
476.4,0.0,952.8,214.38,27.5,1643.56,7,8.96
549.0,0.0,1098.0,247.05,16.5,1893.93,7,23.92
833.8,0.0,833.8,333.52,8.5,2001.19,7,34.15
728.0,0.0,728.0,291.2,20.1,1747.26,7,21.25
724.0,0.0,724.0,289.6,20.6,1737.48,7,21.49
590.9,0.0,590.9,236.36,35.2,1418.07,7,7.25
810.2,0.0,810.2,283.57,15.0,1905.78,7,30.25
757.8,0.0,757.8,265.23,20.5,1782.52,7,27.38
683.5,0.0,683.5,239.225,28.3,1607.7,7,16.94
861.4,0.0,861.4,258.42,13.9,1984.0,7,43.17
851.9,0.0,851.9,255.57,14.8,1962.07,7,41.13
767.2,0.0,767.2,230.16,23.3,1767.11,7,29.53
689.3,0.0,689.3,206.79,31.1,1587.56,7,18.53
852.24,0.0,852.24,298.284,10.4,2006.52,7,36.15
759.5,0.0,759.5,265.825,20.2,1788.15,7,27.3
702.9,0.0,702.9,246.015,26.1,1654.81,7,18.29
693.0,0.0,693.0,242.55,27.2,1631.7,7,16.91
817.3,0.0,817.3,286.055,14.1,1924.15,7,28.84
765.7,0.0,765.7,267.995,19.5,1802.67,7,26.0
666.7,0.0,666.7,233.345,29.9,1569.48,7,20.78
737.2,0.0,737.2,294.88,18.8,1773.27,7,4.06
614.6,0.0,614.6,276.57,29.5,1505.8,28,11.76
581.7,0.0,581.7,261.77,33.3,1425.19,28,13.45
699.7,0.0,699.7,314.87,19.7,1714.37,28,24.39
772.5,0.0,772.5,347.63,11.4,1892.74,28,32.16
779.0,0.0,389.5,350.55,25.2,1519.11,28,15.75
902.0,0.0,451.0,405.9,13.4,1759.11,28,30.4
987.7,0.0,493.85,444.47,5.2,1925.93,28,37.2
985.2,0.0,492.6,443.34,5.4,1921.19,28,36.24
441.7,0.0,883.4,198.765,32.8,1523.85,28,13.19
476.4,0.0,952.8,214.38,27.5,1643.56,28,13.18
549.0,0.0,1098.0,247.05,16.5,1893.93,28,34.66
833.8,0.0,833.8,333.52,8.5,2001.19,28,43.79
728.0,0.0,728.0,291.2,20.1,1747.26,28,27.96
724.0,0.0,724.0,289.6,20.6,1737.48,28,28.27
590.9,0.0,590.9,236.36,35.2,1418.07,28,10.35
810.2,0.0,810.2,283.57,15.0,1905.78,28,43.21
757.8,0.0,757.8,265.23,20.5,1782.52,28,39.68
683.5,0.0,683.5,239.225,28.3,1607.7,28,23.86
861.4,0.0,861.4,258.42,13.9,1984.0,28,48.5
851.9,0.0,851.9,255.57,14.8,1962.07,28,48.39
767.2,0.0,767.2,230.16,23.3,1767.11,28,38.86
689.3,0.0,689.3,206.79,31.1,1587.56,28,24.7
852.24,0.0,852.24,298.284,10.4,2006.52,28,38.87
759.5,0.0,759.5,265.825,20.2,1788.15,28,33.3
702.9,0.0,702.9,246.015,26.1,1654.81,28,22.86
693.0,0.0,693.0,242.55,27.2,1631.7,28,21.68
817.3,0.0,817.3,286.055,14.1,1924.15,28,38.97
765.7,0.0,765.7,267.995,19.5,1802.67,28,35.13
666.7,0.0,666.7,233.345,29.9,1569.48,28,26.3
737.2,0.0,737.2,294.88,18.8,1773.27,28,5.14
390.0,0.0,676.0,234.0,22.12,1300.0,3,0.95
390.0,0.0,617.0,293.0,20.0,1300.0,7,4.07
390.0,0.0,637.0,273.0,20.75,1300.0,180,4.8
390.0,0.0,976.0,234.0,15.68,1600.0,7,2.75
390.0,0.0,898.0,312.0,12.88,1600.0,28,8.9
390.0,0.0,1237.0,273.0,7.87,1900.0,3,7.3
390.0,0.0,1276.0,234.0,9.23,1900.0,28,12.75
390.0,0.0,1198.0,312.0,6.5,1900.0,180,17.9
400.0,0.0,120.0,280.0,33.63,850.0,7,2.0
400.0,0.0,320.0,280.0,29.07,1000.0,14,2.8
400.0,0.0,520.0,280.0,24.5,1200.0,28,5.2
650.0,320.8,0.0,291.0,21.09,1280.0,7,13.2
290.0,141.0,427.0,132.0,30.78,1050.0,14,3.6
390.0,191.9,0.0,174.0,35.91,820.0,28,6.6
461.0,71.0,355.0,196.0,29.07,1080.0,28,34.2
475.8,214.1,713.7,214.1,21.9,1437.0,7,3.97
475.8,142.7,713.7,214.1,21.9,1435.0,14,5.84
475.8,71.4,713.7,214.1,21.9,1431.0,28,6.98
475.8,0.0,713.7,214.1,21.9,1426.0,56,6.45
475.8,356.9,713.7,214.1,21.9,1453.0,56,5.0
475.8,285.5,713.7,214.1,21.9,1448.0,180,5.84
418.8,73.9,739.1,246.4,19.72,1350.0,7,7.06
443.4,49.3,739.1,246.4,19.72,1350.0,14,9.08
468.1,24.6,739.1,246.4,19.72,1350.0,28,10.65
639.0,0.0,958.5,306.7,7.21,1750.0,7,9.14
479.3,159.8,958.5,306.7,7.21,1750.0,7,8.23
511.2,127.8,958.5,306.7,7.21,1750.0,7,8.85
543.2,95.9,958.5,306.7,7.21,1750.0,7,10.29
607.1,32.0,958.5,306.7,7.21,1750.0,14,12.41
447.3,191.7,958.5,306.7,7.21,1750.0,14,9.87
479.3,159.8,958.5,306.7,7.21,1750.0,14,10.6
511.2,127.8,958.5,306.7,7.21,1750.0,14,12.65
575.1,639.0,958.5,306.7,7.21,1750.0,28,14.95
607.1,32.0,958.5,306.7,7.21,1750.0,28,14.5
447.3,191.7,958.5,306.7,7.21,1750.0,28,11.1
479.3,159.8,958.5,306.7,7.21,1750.0,28,13.1
310.7,0.0,426.6,128.0,38.5,758.0,7,2.32
293.2,0.0,426.6,128.0,38.5,754.0,28,2.29
337.1,0.0,426.6,128.0,38.5,764.0,28,2.1
319.5,0.0,426.6,128.0,38.5,761.0,56,3.8
397.7,22.7,562.0,169.0,31.0,1000.0,7,4.75
511.9,28.9,725.0,217.0,21.0,1300.0,7,13.91
626.1,35.1,887.0,266.0,12.0,1600.0,7,9.58
397.7,22.7,562.0,169.0,31.0,1000.0,28,5.94
511.9,28.9,725.0,217.0,21.0,1300.0,28,17.39
626.1,35.1,887.0,266.0,12.0,1600.0,28,11.78
397.7,22.7,562.0,169.0,31.0,1000.0,56,6.65
511.9,28.9,725.0,217.0,21.0,1300.0,56,19.47
626.1,35.1,887.0,266.0,12.0,1600.0,56,13.18
194.1,6.2,291.2,87.4,46.3,500.0,7,1.08
266.3,4.1,399.5,119.9,40.0,700.0,7,2.28
338.6,0.0,507.9,152.4,33.8,900.0,7,2.38
338.6,25.8,507.9,152.4,33.8,900.0,7,2.98
194.1,12.4,291.2,87.4,46.3,500.0,28,1.51
266.3,12.4,399.5,119.9,40.0,700.0,28,3.54
338.6,10.3,507.9,152.4,33.8,900.0,28,4.32
194.1,3.1,291.1,87.4,46.3,500.0,56,1.29
266.3,0.0,399.5,119.9,40.0,700.0,56,2.32
266.3,20.6,399.5,119.9,40.0,700.0,56,2.76
338.6,20.7,507.9,152.4,33.8,900.0,56,6.02
230.2,21.7,345.4,103.6,43.2,600.0,7,1.62
446.9,40.3,670.4,201.1,24.4,1200.0,7,5.38
230.2,21.7,345.4,103.6,43.2,600.0,28,2.01
446.9,40.3,670.4,201.1,24.4,1200.0,28,6.7
230.2,21.7,345.4,103.6,43.2,600.0,56,2.25
446.9,40.3,670.4,201.1,24.4,1200.0,56,7.49
284.4,26.3,426.6,128.0,38.5,758.0,7,2.32
284.4,8.8,426.6,128.0,38.5,758.0,28,2.29
284.4,52.7,426.6,128.0,38.5,770.0,28,2.1
284.4,35.1,426.6,128.0,38.5,767.0,56,3.8
372.0,93.0,697.4,209.2,22.8,1250.0,7,3.81
418.5,46.5,697.4,209.2,22.8,1250.0,7,2.65
186.0,279.0,697.4,209.2,22.8,1250.0,7,1.32
232.5,232.5,697.4,209.2,22.8,1250.0,7,2.21
279.0,186.0,697.4,209.2,22.8,1250.0,7,3.53
372.0,93.0,697.4,209.2,22.8,1250.0,14,4.608
418.5,46.5,697.4,209.2,22.8,1250.0,14,3.213
186.0,279.0,697.4,209.2,22.8,1250.0,14,1.832
232.5,232.5,697.4,209.2,22.8,1250.0,14,2.702
279.0,186.0,697.4,209.2,22.8,1250.0,14,4.387
372.0,93.0,697.4,209.2,22.8,1250.0,28,5.258
418.5,46.5,697.4,209.2,22.8,1250.0,28,3.657
186.0,279.0,697.4,209.2,22.8,1250.0,28,1.822
232.5,232.5,697.4,209.2,22.8,1250.0,28,3.05
279.0,186.0,697.4,209.2,22.8,1250.0,28,4.871
312.5,12.5,104.2,241.8,9.3,602.0,28,2.67
194.1,1.24,291.2,87.4,46.3,500.0,28,1.51
338.6,1.03,507.9,152.4,33.8,900.0,28,3.5
483.0,0.0,724.5,217.4,21.3,1300.0,28,5.2
483.0,7.23,724.5,217.4,21.3,1300.0,28,5.79
357.0,86.7,535.0,161.0,32.0,950.0,7,2.5
357.0,86.7,535.0,161.0,32.0,950.0,28,3.0
357.0,86.7,535.0,161.0,32.0,950.0,56,3.45